File: Spectra (IR and RAMAN)/4_5-IMINE-PYRENE/ethanol_solvent/4_5-IMINE-PYRENE_EtOH_RAMAN.txt
# Raman Scattering Spectrum
# X-Axis:  Frequency (cm-1)
# Y-Axis:  Intensity (10-36 m2 cm/sr)

# Harmonic Data

# Peak information (Harmonic)
#                  X                   Y
#      57.4298        0.116281
#     150.486        0.0453001
#     155.525        0.0150476
#     224.741        0.0902959
#     267.958        0.108941
#     329.69        0.230251
#     347.545        0.0701116
#     388.63        1.74643
#     399.678        0.215096
#     401.596        0.318144
#     413.428        0.196398
#     465.294        0.230405
#     491.82        0.0014812
#     493.303        3.56487
#     510.18        0.0264369
#     555.734        0.00437206
#     565.652        1.06354
#     573.189        0.0770666
#     583.272        0.0258796
#     603.997        0.0595339
#     663.166        0.136357
#     709.439        0.0268311
#     717.77        0.0003409365
#     725.106        0.31804
#     755.152        0.0878901
#     779.338        0.00149722
#     799.084        0.350772
#     816.113        0.061919
#     818.814        0.226598
#     835.38        0.00152661
#     846.567        0.0003709628
#     870.638        0.125864
#     901.771        1.04536
#     946.381        0.0412028
#     950.713        0.0453465
#     991.764        0.179526
#    1005.22        0.0309101
#    1006.97        0.0071022
#    1015.07        0.00308659
#    1020.28        0.609257
#    1044.74        0.357916
#    1096.32        2.34968
#    1114.52        0.00860863
#    1171.96        0.198227
#    1183.15        0.126512
#    1189.97        0.222075
#    1218.47        0.359809
#    1218.97        2.5774
#    1235.53        4.81391
#    1258.7        0.118138
#    1324.95        1.45069
#    1336.42        0.00171593
#    1341.89        3.64293
#    1365.1        3.17915
#    1391.67       19.6787
#    1437.8       11.3158
#    1452.37        0.117782
#    1456.86        0.409193
#    1474.37        4.32219
#    1525.92        0.20127
#    1554.3        4.06039
#    1608.67       14.8934
#    1609.02        3.48585
#    1628.13        7.43491
#    1636.6        2.18337
#    1657        2.96403
#    1682.33        0.0001397707
#    3166.3        0.214221
#    3169.61        1.05038
#    3170.14        1.39624
#    3183.44        2.16448
#    3186.59        0.982227
#    3186.95        5.25929
#    3208.05        0.496182
#    3208.15        3.0709
#    3445.38        1.82266
#    3459.63        0.1366

# Plot Curve (Harmonic)
#                  X                   Y               DY/DX
        0.0000000000        0.020477        0.0006796745
        3.5        0.0230867        0.0008172603
        7        0.0262446        0.0009950388
       10.5        0.0301171        0.00122886
       14        0.0349394        0.00154268
       17.5        0.0410519        0.00197386
       21        0.0489622        0.00258273
       24.5        0.0594539        0.00347077
       28        0.0737868        0.00481728
       31.5        0.0940893        0.00695797
       35        0.124179        0.0105679
       38.5        0.171435        0.0171292
       42        0.251553        0.0302771
       45.5        0.402266        0.0602477
       49        0.72938        0.140715
       52.5        1.57228        0.383904
       56        3.50797        0.555448
       59.5        3.12103       -0.636162
       63        1.34875       -0.31845
       66.5        0.649815       -0.118662
       70        0.370192       -0.05236
       73.5        0.237897       -0.0268604
       77        0.166412       -0.0153641
       80.5        0.123954       -0.00949835
       84        0.0969818       -0.00620615
       87.5        0.0790198       -0.00421216
       91        0.0666837       -0.00292389
       94.5        0.058085       -0.00204068
       98        0.0521213       -0.00139764
      101.5        0.0481366       -0.0008970485
      105        0.0457506       -0.0004752719
      108.5        0.0469988       -0.0000570758
      112        0.0474951        0.0003462004
      115.5        0.0494905        0.0008086036
      119        0.0533002        0.00139655
      122.5        0.0595354        0.00221789
      126        0.0693204        0.00346957
      129.5        0.0847717        0.00554965
      133        0.110132        0.0093524
      136.5        0.15476        0.017153
      140        0.242199        0.0356757
      143.5        0.441885        0.0878562
      147        0.967753        0.22991
      150.5        1.72352        0.0448001
      154        1.30966       -0.138205
      157.5        0.794465       -0.159349
      161        0.387582       -0.0728836
      164.5        0.220487       -0.0300062
      168        0.146983       -0.0143756
      171.5        0.114588       -0.0076071
      175        0.0944839       -0.00422184
      178.5        0.083417       -0.00225607
      182        0.0779448       -0.0009421610
      185.5        0.0764925        0.0000848559
      189        0.0798802        0.00105763
      192.5        0.0853756        0.00211424
      196        0.0950284        0.0034732
      199.5        0.110401        0.00545233
      203        0.134601        0.00865814
      206.5        0.173921        0.014418
      210        0.242168        0.0260442
      213.5        0.373548        0.0531266
      217        0.667132        0.128036
      220.5        1.43797        0.348994
      224        2.9109        0.257591
      227.5        2.05977       -0.467059
      231        0.95493       -0.19197
      234.5        0.533425       -0.0710866
      238        0.369243       -0.0293039
      241.5        0.306146       -0.0112488
      245        0.292809       -0.0006272112
      248.5        0.306657        0.00870674
      252        0.357741        0.0215625
      255.5        0.475151        0.0465703
      259        0.729174        0.108991
      262.5        1.37705        0.295062
      266        2.99748        0.564624
      269.5        3.22804       -0.515554
      273        1.52005       -0.330765
      276.5        0.79767       -0.11958
      280        0.523261       -0.0492996
      283.5        0.404317       -0.0224541
      287        0.349904       -0.010016
      290.5        0.328005       -0.00304995
      294        0.326075        0.00173926
      297.5        0.339432        0.00587221
      301        0.367568        0.010339
      304.5        0.413388        0.0161818
      308        0.488967        0.0251301
      311.5        0.60022        0.0405369
      315        0.788718        0.070914
      318.5        1.1405        0.140721
      322        1.90868        0.33236
      325.5        3.89919        0.893027
      329        7.60624        0.620321
      332.5        5.4661       -1.13241
      336        2.84779       -0.426328
      339.5        2.04582       -0.0772536
      343        2.20938        0.180555
      346.5        3.20029        0.239922
      350        2.72235       -0.352668
      353.5        1.86359       -0.130716
      357        1.65022       -0.00916257
      360.5        1.73227        0.0520021
      364        2.00701        0.106239
      367.5        2.49872        0.180235
      371        3.32967        0.307758
      374.5        4.80006        0.565317
      378        7.6812        1.17538
      381.5       14.2631        2.89806
      385       31.6898        7.67355
      388.5       57.2372        1.14982
      392       35.7149       -7.3821
      395.5       20.8111       -1.50377
      399       21.5332        1.01561
      402.5       19.3417       -2.53773
      406       10.9717       -1.57648
      409.5        8.45936        0.0313245
      413        9.59024       -0.0335192
      416.5        6.44089       -1.13361
      420        3.69614       -0.48639
      423.5        2.54814       -0.21559
      427        2.00278       -0.110443
      430.5        1.71177       -0.0597851
      434        1.55855       -0.0298828
      437.5        1.49298       -0.00840212
      441        1.49686        0.0105657
      444.5        1.5702        0.0314119
      448        1.72649        0.0598551
      451.5        2.01136        0.107896
      455        2.54121        0.209041
      458.5        3.65911        0.476024
      462        6.39206        1.15259
      465.5        9.71232       -0.0321314
      469        7.07268       -0.73342
      472.5        5.91232        0.00272129
      476        6.7543        0.467595
      479.5        9.34626        1.07243
      483       15.0689        2.40042
      486.5       28.8632        6.17199
      490       66.0637       16.0926
      493.5      110.475       -2.71703
      497       59.9099      -14.8223
      500.5       26.489       -5.50898
      504       14.1058       -2.1658
      507.5        9.00802       -0.927861
      511        6.48166       -0.650582
      514.5        4.52078       -0.434403
      518        3.36156       -0.249453
      521.5        2.66993       -0.155274
      525        2.23004       -0.100325
      528.5        1.94678       -0.0635944
      532        1.77491       -0.0355237
      535.5        1.6947       -0.0104057
      539        1.70431        0.0166769
      542.5        1.82109        0.0521979
      546        2.09299        0.108145
      549.5        2.59922        0.212829
      553        3.68411        0.436575
      556.5        5.96159        0.942708
      560       11.5343        2.54982
      563.5       25.9154        5.28717
      567       30.2094       -4.24762
      570.5       15.1627       -2.84349
      574        8.75665       -1.3801
      577.5        4.9734       -0.715989
      581        3.45382       -0.22353
      584.5        2.68972       -0.280755
      588        1.82633       -0.179515
      591.5        1.39667       -0.077087
      595        1.24946       -0.00671108
      598.5        1.39933        0.106468
      602        2.09283        0.257796
      605.5        2.13927       -0.281424
      609        1.19743       -0.187804
      612.5        0.770146       -0.0757863
      616        0.583694       -0.0371002
      619.5        0.484919       -0.0213884
      623        0.4252       -0.0135013
      626.5        0.38249       -0.00864739
      630        0.358595       -0.00513151
      633.5        0.346135       -0.00199477
      637        0.344973        0.00143938
      640.5        0.363967        0.00609607
      644        0.396887        0.0133649
      647.5        0.46462        0.0268924
      651        0.603191        0.0564906
      654.5        0.845422        0.134851
      658        1.65355        0.368217
      661.5        3.59683        0.614558
      665        3.49227       -0.635591
      668.5        1.59991       -0.349963
      672        0.8329       -0.128213
      675.5        0.535423       -0.0542991
      679        0.402646       -0.0255304
      682.5        0.339786       -0.0118234
      686        0.313552       -0.00370167
      689.5        0.311788        0.00258181
      693        0.332061        0.00924452
      696.5        0.379904        0.018917
      700        0.47455        0.0375739
      703.5        0.673755        0.0837413
      707        1.12609        0.173608
      710.5        1.50568       -0.00810437
      714        1.53775        0.0877405
      717.5        2.30978        0.387656
      721        4.76659        1.12517
      724.5        9.32667        0.672865
      728        6.29912       -1.45643
      731.5        2.80133       -0.586633
      735        1.50707       -0.219061
      738.5        1.00289       -0.0883774
      742        0.833052       -0.0237773
      745.5        0.848362        0.036141
      749        1.15278        0.156599
      752.5        2.1257        0.400609
      756        2.77393       -0.253823
      759.5        1.48533       -0.293619
      763        0.843037       -0.103714
      766.5        0.615323       -0.0368189
      770        0.541435       -0.00848154
      773.5        0.545308        0.010307
      777        0.615657        0.0300281
      780.5        0.739365        0.0396909
      784        0.937268        0.0803855
      787.5        1.35682        0.171131
      791        2.29737        0.40665
      794.5        4.73489        1.10369
      798        9.87991        1.22207
      801.5        7.99926       -1.59288
      805        4.0035       -0.638152
      808.5        2.9027       -0.055214
      812        3.54277        0.457283
      815.5        6.30068        1.01708
      819        8.20289       -0.465554
      822.5        4.45302       -1.01312
      826        2.15777       -0.383279
      829.5        1.28364       -0.155869
      833        0.913972       -0.0696062
      836.5        0.724972       -0.0455923
      840        0.598988       -0.0254975
      843.5        0.539677       -0.00953813
      847        0.523995       -0.00127124
      850.5        0.533666        0.00802279
      854        0.585385        0.0223894
      857.5        0.701688        0.0467653
      861        0.957749        0.102113
      864.5        1.53924        0.258349
      868        3.02858        0.594613
      871.5        4.04391       -0.32194
      875        2.38773       -0.362279
      878.5        1.68485       -0.0795403
      882        1.65268        0.0499187
      885.5        2.01864        0.164155
      889        2.89283        0.359181
      892.5        4.84308        0.832945
      896        9.76541        2.23806
      899.5       22.503        4.79264
      903       27.1452       -3.79234
      906.5       12.4634       -3.03933
      910        5.78486       -1.11041
      913.5        3.21711       -0.469478
      917        2.04852       -0.232373
      920.5        1.43956       -0.128334
      924        1.09223       -0.0754277
      927.5        0.886725       -0.0442874
      931        0.772261       -0.0217967
      934.5        0.734683        0.0013041
      938        0.839412        0.0407195
      941.5        1.12483        0.138216
      945        1.87264        0.248717
      948.5        2.27351        0.0143106
      952        1.92617       -0.261441
      955.5        1.09336       -0.162191
      959        0.736519       -0.0590559
      962.5        0.599345       -0.0214417
      966        0.557861       -0.00390142
      969.5        0.566191        0.00840588
      973        0.618038        0.0218653
      976.5        0.726861        0.0430356
      980        0.939048        0.0864524
      983.5        1.40333        0.197771
      987        2.57078        0.525546
      990.5        5.12007        0.67932
      994        4.52105       -0.758567
      997.5        2.58856       -0.29312
     1001        2.20725        0.045806
     1004.5        2.7151        0.168136
     1008        2.97322        0.0588197
     1011.5        3.78909        0.469304
     1015        6.87853        1.44404
     1018.5       14.677        2.58826
     1022       14.8512       -2.55353
     1025.5        6.98418       -1.46336
     1029        3.87258       -0.48218
     1032.5        2.9368       -0.0974889
     1036        3.10016        0.20496
     1039.5        4.71259        0.809372
     1043        9.18728        1.47381
     1046.5        9.07003       -1.52765
     1050        4.42866       -0.864963
     1053.5        2.54725       -0.308934
     1057        1.85483       -0.11756
     1060.5        1.65132       -0.035628
     1064        1.59681        0.0121887
     1067.5        1.70956        0.052312
     1071        1.9711        0.0994326
     1074.5        2.43181        0.169421
     1078        3.29782        0.292587
     1081.5        4.69621        0.537093
     1085        7.41974        1.10487
     1088.5       13.539        2.67169
     1092       29.7035        7.31739
     1095.5       61.3643        5.99014
     1099       44.2088      -10.1404
     1102.5       19.1258       -4.27343
     1106        9.65904       -1.62509
     1109.5        5.80756       -0.719544
     1113        4.02827       -0.354114
     1116.5        2.97435       -0.261169
     1120        2.24827       -0.158012
     1123.5        1.81306       -0.0970579
     1127        1.53842       -0.0627811
     1130.5        1.35915       -0.0411281
     1134        1.24292       -0.0260853
     1137.5        1.17239       -0.0146478
     1141        1.13828       -0.00502407
     1144.5        1.13666        0.00411838
     1148        1.16811        0.014137
     1151.5        1.23887        0.0270039
     1155        1.36178        0.0466004
     1158.5        1.5801        0.0822048
     1162        1.986        0.161454
     1165.5        2.8866        0.378771
     1169        5.05787        0.894356
     1172.5        7.18985       -0.209003
     1176        5.30093       -0.376747
     1179.5        5.36663        0.399997
     1183        7.33652        0.359221
     1186.5        7.93266        0.400453
     1190        9.63345       -0.0951034
     1193.5        7.1496       -0.712777
     1197        5.89553       -0.0644169
     1200.5        6.35115        0.304975
     1204        8.06383        0.701294
     1207.5       11.7105        1.45828
     1211       19.6449        3.41149
     1214.5       39.8982        9.07952
     1218       80.1598        8.53295
     1221.5       64.4119      -11.1415
     1225       39.6938       -2.70446
     1228.5       42.81        4.60424
     1232       78.3869       16.6938
     1235.5      131.27       -0.0376767
     1239       75.7981      -18.0751
     1242.5       34.3802       -6.89265
     1246       18.821       -2.747
     1249.5       12.213       -1.24703
     1253        9.25889       -0.492115
     1256.5        8.57801        0.0620357
     1260        7.77419       -0.687591
     1263.5        5.45366       -0.494894
     1267        4.23896       -0.237703
     1270.5        3.61737       -0.131328
     1274        3.26109       -0.0772434
     1277.5        3.05365       -0.0433397
     1281        3.1315       -0.0160535
     1284.5        3.11299        0.00509543
     1288        3.16604        0.0252596
     1291.5        3.29145        0.0468434
     1295        3.50062        0.0725893
     1298.5        3.81727        0.106524
     1302        4.26994        0.155531
     1305.5        4.93954        0.233838
     1309        5.97715        0.373966
     1312.5        7.72456        0.662476
     1316       11.1513        1.37224
     1319.5       18.9077        3.42559
     1323       37.3403        6.41692
     1326.5       41.8606       -4.63546
     1330       27.8081       -1.9354
     1333.5       28.4317        2.23643
     1337       46.1976        8.80829
     1340.5       91.4512       12.9062
     1344       81.7047      -14.7937
     1347.5       41.516       -6.9057
     1351       27.6856       -1.8033
     1354.5       25.9844        0.709637
     1358       33.4302        3.92394
     1361.5       58.5769       11.3016
     1365       96.0935        1.60684
     1368.5       65.0699      -10.5222
     1372       43.4228       -2.56925
     1375.5       42.2136        1.55485
     1379       54.244        5.6435
     1382.5       86.5968       14.1628
     1386      171.417       38.7795
     1389.5      390.197       80.4644
     1393      452.844      -67.2805
     1396.5      207.208      -49.635
     1400       98.3616      -18.0748
     1403.5       56.6824       -7.56737
     1407       38.1233       -3.60371
     1410.5       29.0609       -1.77508
     1414       24.8276       -0.715033
     1417.5       23.8044        0.124555
     1421       25.869        1.11643
     1424.5       32.4281        2.82922
     1428       48.1863        6.79745
     1431.5       88.3373       18.2455
     1435      196.651       44.5675
     1438.5      280.871      -23.4687
     1442      140.905      -33.4781
     1445.5       67.2773      -11.9266
     1449       41.5754       -4.10671
     1452.5       33.5015       -1.12326
     1456       31.9547       -0.315246
     1459.5       26.8733       -1.75202
     1463       24.5448        0.515571
     1466.5       31.3745        3.75175
     1470       56.4611       11.7512
     1473.5      108.765       10.358
     1477       80.447      -17.3928
     1480.5       36.973       -7.48097
     1484       20.2675       -2.90744
     1487.5       13.2324       -1.35257
     1491        9.7402       -0.727092
     1494.5        7.77192       -0.430514
     1498        6.61687       -0.269023
     1501.5        5.85994       -0.17052
     1505        5.33272       -0.101329
     1508.5        5.07809       -0.0449965
     1512        5.02108        0.0144841
     1515.5        5.21222        0.103392
     1519        5.86278        0.298503
     1522.5        7.65054        0.773506
     1526       10.0142        0.0741193
     1529.5        8.36706       -0.486746
     1533        7.69044        0.0574821
     1536.5        8.54384        0.424601
     1540       10.8004        0.911696
     1543.5       15.5516        1.9582
     1547       26.5595        4.85368
     1550.5       55.8986       13.0468
     1554      102.194        3.72845
     1557.5       64.4445      -14.5971
     1561       30.5715       -5.57758
     1564.5       18.3226       -2.06168
     1568       13.618       -0.815788
     1571.5       11.8417       -0.26056
     1575       11.5382        0.0672081
     1578.5       12.2442        0.33451
     1582       13.9143        0.631499
     1585.5       16.802        1.04806
     1589       21.5602        1.73533
     1592.5       29.6398        3.03034
     1596       44.471        5.83372
     1599.5       75.1505       12.9937
     1603      151.157       34.3623
     1606.5      345.007       72.1177
     1610      412.073      -56.5687
     1613.5      197.864      -43.2849
     1617      107.579      -12.9873
     1620.5       88.5539        1.30829
     1624      120.891       18.8151
     1627.5      203.113       12.9367
     1631      150.841      -24.7399
     1634.5      104.027       -3.51409
     1638       82.9163      -11.8629
     1641.5       46.5918       -6.98091
     1645       31.6754       -2.17222
     1648.5       29.2897        0.810783
     1652       39.563        5.73009
     1655.5       71.0994        9.5432
     1659       63.9345      -11.7157
     1662.5       30.5829       -6.12912
     1666       16.8288       -2.40329
     1669.5       10.9928       -1.14045
     1673        7.99815       -0.638883
     1676.5        6.22193       -0.402469
     1680        5.05687       -0.275158
     1683.5        4.23499       -0.200685
     1687        3.61963       -0.1523
     1690.5        3.14781       -0.119326
     1694        2.77319       -0.095998
     1697.5        2.46866       -0.0788505
     1701        2.21642       -0.0658593
     1704.5        2.00427       -0.0557733
     1708        1.82357       -0.0477827
     1711.5        1.66799       -0.0413434
     1715        1.47155       -0.0353167
     1718.5        1.35572       -0.0310054
     1722        1.25369       -0.0274006
     1725.5        1.16326       -0.0243577
     1729        1.08266       -0.0217671
     1732.5        1.01046       -0.0195447
     1736        0.945496       -0.0176253
     1739.5        0.886794       -0.0159572
     1743        0.833551       -0.0144995
     1746.5        0.785091       -0.0132189
     1750        0.740843       -0.0120888
     1753.5        0.70032       -0.011087
     1757        0.663105       -0.0101954
     1760.5        0.628841       -0.00939901
     1764        0.597216       -0.00868511
     1767.5        0.567961       -0.00804308
     1771        0.272338       -0.00415654
     1774.5        0.258358       -0.00383759
     1778        0.245437       -0.00355074
     1781.5        0.23347       -0.00329202
     1785        0.222364       -0.00305804
     1788.5        0.101346       -0.00146632
     1792        0.0964029       -0.00135994
     1795.5        0.0918144       -0.00126364
     1799        0.0559084       -0.0007868530
     1802.5        0.0532529       -0.0007314773
     1806        0.0507821       -0.0006811772
     1809.5        0.0484794       -0.0006353842
     1813        0.0463298       -0.0005936047
     1816.5        0.04432       -0.0005554087
     1820        0.0000027879       -0.0000000405
     1823.5        0.0000026515       -0.0000000375
     1827        0.0000025248       -0.0000000349
     1830.5        0.0000024070       -0.0000000325
     1834        0.0000022973       -0.0000000303
     1837.5        0.0000021949       -0.0000000283
     1841        0.0000020992       -0.0000000264
     1844.5        0.0000000000        0.0000000000
     1848        0.0000000000        0.0000000000
     1851.5        0.0000000000        0.0000000000
     1855        0.0000000000        0.0000000000
     1858.5        0.0000000000        0.0000000000
     1862        0.0000000000        0.0000000000
     1865.5        0.0000000000        0.0000000000
     1869        0.0000000000        0.0000000000
     1872.5        0.0000000000        0.0000000000
     1876        0.0000000000        0.0000000000
     1879.5        0.0000000000        0.0000000000
     1883        0.0000000000        0.0000000000
     1886.5        0.0000000000        0.0000000000
     1890        0.0000000000        0.0000000000
     1893.5        0.0000000000        0.0000000000
     1897        0.0000000000        0.0000000000
     1900.5        0.0000000000        0.0000000000
     1904        0.0000000000        0.0000000000
     1907.5        0.0000000000        0.0000000000
     1911        0.0000000000        0.0000000000
     1914.5        0.0000000000        0.0000000000
     1918        0.0000000000        0.0000000000
     1921.5        0.0000000000        0.0000000000
     1925        0.0000000000        0.0000000000
     1928.5        0.0000000000        0.0000000000
     1932        0.0000000000        0.0000000000
     1935.5        0.0000000000        0.0000000000
     1939        0.0000000000        0.0000000000
     1942.5        0.0000000000        0.0000000000
     1946        0.0000000000        0.0000000000
     1949.5        0.0000000000        0.0000000000
     1953        0.0000000000        0.0000000000
     1956.5        0.0000000000        0.0000000000
     1960        0.0000000000        0.0000000000
     1963.5        0.0000000000        0.0000000000
     1967        0.0000000000        0.0000000000
     1970.5        0.0000000000        0.0000000000
     1974        0.0000000000        0.0000000000
     1977.5        0.0000000000        0.0000000000
     1981        0.0000000000        0.0000000000
     1984.5        0.0000000000        0.0000000000
     1988        0.0000000000        0.0000000000
     1991.5        0.0000000000        0.0000000000
     1995        0.0000000000        0.0000000000
     1998.5        0.0000000000        0.0000000000
     2002        0.0000000000        0.0000000000
     2005.5        0.0000000000        0.0000000000
     2009        0.0000000000        0.0000000000
     2012.5        0.0000000000        0.0000000000
     2016        0.0000000000        0.0000000000
     2019.5        0.0000000000        0.0000000000
     2023        0.0000000000        0.0000000000
     2026.5        0.0000000000        0.0000000000
     2030        0.0000000000        0.0000000000
     2033.5        0.0000000000        0.0000000000
     2037        0.0000000000        0.0000000000
     2040.5        0.0000000000        0.0000000000
     2044        0.0000000000        0.0000000000
     2047.5        0.0000000000        0.0000000000
     2051        0.0000000000        0.0000000000
     2054.5        0.0000000000        0.0000000000
     2058        0.0000000000        0.0000000000
     2061.5        0.0000000000        0.0000000000
     2065        0.0000000000        0.0000000000
     2068.5        0.0000000000        0.0000000000
     2072        0.0000000000        0.0000000000
     2075.5        0.0000000000        0.0000000000
     2079        0.0000000000        0.0000000000
     2082.5        0.0000000000        0.0000000000
     2086        0.0000000000        0.0000000000
     2089.5        0.0000000000        0.0000000000
     2093        0.0000000000        0.0000000000
     2096.5        0.0000000000        0.0000000000
     2100        0.0000000000        0.0000000000
     2103.5        0.0000000000        0.0000000000
     2107        0.0000000000        0.0000000000
     2110.5        0.0000000000        0.0000000000
     2114        0.0000000000        0.0000000000
     2117.5        0.0000000000        0.0000000000
     2121        0.0000000000        0.0000000000
     2124.5        0.0000000000        0.0000000000
     2128        0.0000000000        0.0000000000
     2131.5        0.0000000000        0.0000000000
     2135        0.0000000000        0.0000000000
     2138.5        0.0000000000        0.0000000000
     2142        0.0000000000        0.0000000000
     2145.5        0.0000000000        0.0000000000
     2149        0.0000000000        0.0000000000
     2152.5        0.0000000000        0.0000000000
     2156        0.0000000000        0.0000000000
     2159.5        0.0000000000        0.0000000000
     2163        0.0000000000        0.0000000000
     2166.5        0.0000000000        0.0000000000
     2170        0.0000000000        0.0000000000
     2173.5        0.0000000000        0.0000000000
     2177        0.0000000000        0.0000000000
     2180.5        0.0000000000        0.0000000000
     2184        0.0000000000        0.0000000000
     2187.5        0.0000000000        0.0000000000
     2191        0.0000000000        0.0000000000
     2194.5        0.0000000000        0.0000000000
     2198        0.0000000000        0.0000000000
     2201.5        0.0000000000        0.0000000000
     2205        0.0000000000        0.0000000000
     2208.5        0.0000000000        0.0000000000
     2212        0.0000000000        0.0000000000
     2215.5        0.0000000000        0.0000000000
     2219        0.0000000000        0.0000000000
     2222.5        0.0000000000        0.0000000000
     2226        0.0000000000        0.0000000000
     2229.5        0.0000000000        0.0000000000
     2233        0.0000000000        0.0000000000
     2236.5        0.0000000000        0.0000000000
     2240        0.0000000000        0.0000000000
     2243.5        0.0000000000        0.0000000000
     2247        0.0000000000        0.0000000000
     2250.5        0.0000000000        0.0000000000
     2254        0.0000000000        0.0000000000
     2257.5        0.0000000000        0.0000000000
     2261        0.0000000000        0.0000000000
     2264.5        0.0000000000        0.0000000000
     2268        0.0000000000        0.0000000000
     2271.5        0.0000000000        0.0000000000
     2275        0.0000000000        0.0000000000
     2278.5        0.0000000000        0.0000000000
     2282        0.0000000000        0.0000000000
     2285.5        0.0000000000        0.0000000000
     2289        0.0000000000        0.0000000000
     2292.5        0.0000000000        0.0000000000
     2296        0.0000000000        0.0000000000
     2299.5        0.0000000000        0.0000000000
     2303        0.0000000000        0.0000000000
     2306.5        0.0000000000        0.0000000000
     2310        0.0000000000        0.0000000000
     2313.5        0.0000000000        0.0000000000
     2317        0.0000000000        0.0000000000
     2320.5        0.0000000000        0.0000000000
     2324        0.0000000000        0.0000000000
     2327.5        0.0000000000        0.0000000000
     2331        0.0000000000        0.0000000000
     2334.5        0.0000000000        0.0000000000
     2338        0.0000000000        0.0000000000
     2341.5        0.0000000000        0.0000000000
     2345        0.0000000000        0.0000000000
     2348.5        0.0000000000        0.0000000000
     2352        0.0000000000        0.0000000000
     2355.5        0.0000000000        0.0000000000
     2359        0.0000000000        0.0000000000
     2362.5        0.0000000000        0.0000000000
     2366        0.0000000000        0.0000000000
     2369.5        0.0000000000        0.0000000000
     2373        0.0000000000        0.0000000000
     2376.5        0.0000000000        0.0000000000
     2380        0.0000000000        0.0000000000
     2383.5        0.0000000000        0.0000000000
     2387        0.0000000000        0.0000000000
     2390.5        0.0000000000        0.0000000000
     2394        0.0000000000        0.0000000000
     2397.5        0.0000000000        0.0000000000
     2401        0.0000000000        0.0000000000
     2404.5        0.0000000000        0.0000000000
     2408        0.0000000000        0.0000000000
     2411.5        0.0000000000        0.0000000000
     2415        0.0000000000        0.0000000000
     2418.5        0.0000000000        0.0000000000
     2422        0.0000000000        0.0000000000
     2425.5        0.0000000000        0.0000000000
     2429        0.0000000000        0.0000000000
     2432.5        0.0000000000        0.0000000000
     2436        0.0000000000        0.0000000000
     2439.5        0.0000000000        0.0000000000
     2443        0.0000000000        0.0000000000
     2446.5        0.0000000000        0.0000000000
     2450        0.0000000000        0.0000000000
     2453.5        0.0000000000        0.0000000000
     2457        0.0000000000        0.0000000000
     2460.5        0.0000000000        0.0000000000
     2464        0.0000000000        0.0000000000
     2467.5        0.0000000000        0.0000000000
     2471        0.0000000000        0.0000000000
     2474.5        0.0000000000        0.0000000000
     2478        0.0000000000        0.0000000000
     2481.5        0.0000000000        0.0000000000
     2485        0.0000000000        0.0000000000
     2488.5        0.0000000000        0.0000000000
     2492        0.0000000000        0.0000000000
     2495.5        0.0000000000        0.0000000000
     2499        0.0000000000        0.0000000000
     2502.5        0.0000000000        0.0000000000
     2506        0.0000000000        0.0000000000
     2509.5        0.0000000000        0.0000000000
     2513        0.0000000000        0.0000000000
     2516.5        0.0000000000        0.0000000000
     2520        0.0000000000        0.0000000000
     2523.5        0.0000000000        0.0000000000
     2527        0.0000000000        0.0000000000
     2530.5        0.0000000000        0.0000000000
     2534        0.0000000000        0.0000000000
     2537.5        0.0000000000        0.0000000000
     2541        0.0000000000        0.0000000000
     2544.5        0.0000000000        0.0000000000
     2548        0.0000000000        0.0000000000
     2551.5        0.0000000000        0.0000000000
     2555        0.0000000000        0.0000000000
     2558.5        0.0000000000        0.0000000000
     2562        0.0000000000        0.0000000000
     2565.5        0.0000000000        0.0000000000
     2569        0.0000000000        0.0000000000
     2572.5        0.0000000000        0.0000000000
     2576        0.0000000000        0.0000000000
     2579.5        0.0000000000        0.0000000000
     2583        0.0000000000        0.0000000000
     2586.5        0.0000000000        0.0000000000
     2590        0.0000000000        0.0000000000
     2593.5        0.0000000000        0.0000000000
     2597        0.0000000000        0.0000000000
     2600.5        0.0000000000        0.0000000000
     2604        0.0000000000        0.0000000000
     2607.5        0.0000000000        0.0000000000
     2611        0.0000000000        0.0000000000
     2614.5        0.0000000000        0.0000000000
     2618        0.0000000000        0.0000000000
     2621.5        0.0000000000        0.0000000000
     2625        0.0000000000        0.0000000000
     2628.5        0.0000000000        0.0000000000
     2632        0.0000000000        0.0000000000
     2635.5        0.0000000000        0.0000000000
     2639        0.0000000000        0.0000000000
     2642.5        0.0000000000        0.0000000000
     2646        0.0000000000        0.0000000000
     2649.5        0.0000000000        0.0000000000
     2653        0.0000000000        0.0000000000
     2656.5        0.0000000000        0.0000000000
     2660        0.0000000000        0.0000000000
     2663.5        0.0000000000        0.0000000000
     2667        0.0000000000        0.0000000000
     2670.5        0.0000000000        0.0000000000
     2674        0.0000000000        0.0000000000
     2677.5        0.0000000000        0.0000000000
     2681        0.0000000000        0.0000000000
     2684.5        0.0000000000        0.0000000000
     2688        0.0000000000        0.0000000000
     2691.5        0.0000000000        0.0000000000
     2695        0.0000000000        0.0000000000
     2698.5        0.0000000000        0.0000000000
     2702        0.0000000000        0.0000000000
     2705.5        0.0000000000        0.0000000000
     2709        0.0000000000        0.0000000000
     2712.5        0.0000000000        0.0000000000
     2716        0.0000000000        0.0000000000
     2719.5        0.0000000000        0.0000000000
     2723        0.0000000000        0.0000000000
     2726.5        0.0000000000        0.0000000000
     2730        0.0000000000        0.0000000000
     2733.5        0.0000000000        0.0000000000
     2737        0.0000000000        0.0000000000
     2740.5        0.0000000000        0.0000000000
     2744        0.0000000000        0.0000000000
     2747.5        0.0000000000        0.0000000000
     2751        0.0000000000        0.0000000000
     2754.5        0.0000000000        0.0000000000
     2758        0.0000000000        0.0000000000
     2761.5        0.0000000000        0.0000000000
     2765        0.0000000000        0.0000000000
     2768.5        0.0000000000        0.0000000000
     2772        0.0000000000        0.0000000000
     2775.5        0.0000000000        0.0000000000
     2779        0.0000000000        0.0000000000
     2782.5        0.0000000000        0.0000000000
     2786        0.0000000000        0.0000000000
     2789.5        0.0000000000        0.0000000000
     2793        0.0000000000        0.0000000000
     2796.5        0.0000000000        0.0000000000
     2800        0.0000000000        0.0000000000
     2803.5        0.0000000000        0.0000000000
     2807        0.0000000000        0.0000000000
     2810.5        0.0000000000        0.0000000000
     2814        0.0000000000        0.0000000000
     2817.5        0.0000000000        0.0000000000
     2821        0.0000000000        0.0000000000
     2824.5        0.0000000000        0.0000000000
     2828        0.0000000000        0.0000000000
     2831.5        0.0000000000        0.0000000000
     2835        0.0000000000        0.0000000000
     2838.5        0.0000000000        0.0000000000
     2842        0.0000000000        0.0000000000
     2845.5        0.0000000000        0.0000000000
     2849        0.0000000000        0.0000000000
     2852.5        0.0000000000        0.0000000000
     2856        0.0000000000        0.0000000000
     2859.5        0.0000000000        0.0000000000
     2863        0.0000000000        0.0000000000
     2866.5        0.0000000000        0.0000000000
     2870        0.0000000000        0.0000000000
     2873.5        0.0000000000        0.0000000000
     2877        0.0000000000        0.0000000000
     2880.5        0.0000000000        0.0000000000
     2884        0.0000000000        0.0000000000
     2887.5        0.0000000000        0.0000000000
     2891        0.0000000000        0.0000000000
     2894.5        0.0000000000        0.0000000000
     2898        0.0000000000        0.0000000000
     2901.5        0.0000000000        0.0000000000
     2905        0.0000000000        0.0000000000
     2908.5        0.0000000000        0.0000000000
     2912        0.0000000000        0.0000000000
     2915.5        0.0000000000        0.0000000000
     2919        0.0000000000        0.0000000000
     2922.5        0.0000000000        0.0000000000
     2926        0.0000000000        0.0000000000
     2929.5        0.0000000000        0.0000000000
     2933        0.0000000000        0.0000000000
     2936.5        0.0000000000        0.0000000000
     2940        0.0000000000        0.0000000000
     2943.5        0.0000000000        0.0000000000
     2947        0.0000000000        0.0000000000
     2950.5        0.0000000000        0.0000000000
     2954        0.0000000000        0.0000000000
     2957.5        0.0000000000        0.0000000000
     2961        0.0000000000        0.0000000000
     2964.5        0.0000000000        0.0000000000
     2968        0.0000000000        0.0000000000
     2971.5        0.0000000000        0.0000000000
     2975        0.0000000000        0.0000000000
     2978.5        0.0000000000        0.0000000000
     2982        0.0000000000        0.0000000000
     2985.5        0.0000000000        0.0000000000
     2989        0.0000000000        0.0000000000
     2992.5        0.0000000000        0.0000000000
     2996        0.0000000000        0.0000000000
     2999.5        0.0000000000        0.0000000000
     3003        0.0000000000        0.0000000000
     3006.5        0.00220675        0.0000276011
     3010        0.0131441        0.0001652122
     3013.5        0.0286964        0.0003674250
     3017        0.030027        0.0003932680
     3020.5        0.0314522        0.0004215921
     3024        0.0552818        0.0007322631
     3027.5        0.122222        0.00159186
     3031        0.127991        0.00170616
     3034.5        0.134178        0.0018317
     3038        0.140827        0.00196991
     3041.5        0.147984        0.00212242
     3045        0.155703        0.00229114
     3048.5        0.200473        0.00293442
     3052        0.211155        0.00317395
     3055.5        0.222722        0.00344051
     3059        0.235275        0.00373803
     3062.5        0.24893        0.00407121
     3066        0.263822        0.0044456
     3069.5        0.280105        0.00486784
     3073        0.297962        0.0053459
     3076.5        0.317603        0.00588944
     3080        0.339278        0.0065102
     3083.5        0.363281        0.00722257
     3087        0.389963        0.00804436
     3090.5        0.419745        0.00899772
     3094        0.453133        0.0101105
     3097.5        0.490745        0.0114181
     3101        0.533339        0.0129658
     3104.5        0.581854        0.0148127
     3108        0.637466        0.0170362
     3111.5        0.701666        0.0197399
     3115        0.776368        0.0230643
     3118.5        0.864065        0.0272038
     3122        0.968061        0.0324325
     3125.5        1.09282        0.0391472
     3129        1.2445        0.0479377
     3132.5        1.43184        0.0597103
     3136        1.6676        0.0759124
     3139.5        1.97115        0.0989655
     3143        2.37322        0.133158
     3146.5        2.92546        0.18664
     3150        3.7212        0.276346
     3153.5        4.94597        0.441718
     3157        7.01809        0.788922
     3160.5       11.0436        1.65108
     3164       20.2453        3.93189
     3167.5       39.557        6.7039
     3171       48.8895       -3.76872
     3174.5       34.4464       -1.88222
     3178       38.9266        4.62016
     3181.5       70.7628       13.713
     3185      118.658       10.6694
     3188.5      105.773      -18.43
     3192       49.9461      -10.3795
     3195.5       27.9803       -3.31229
     3199       22.3921       -0.101082
     3202.5       27.8816        3.6435
     3206       51.0686        8.83212
     3209.5       56.3632       -8.28991
     3213       26.7751       -5.98071
     3216.5       13.4669       -2.26876
     3220        8.08971       -1.01811
     3223.5        5.48084       -0.540568
     3227        4.01243       -0.323997
     3230.5        3.09456       -0.211622
     3234        2.47633       -0.147132
     3237.5        2.03643       -0.107193
     3241        1.71017       -0.08096
     3244.5        1.46025       -0.0629136
     3248        1.2638       -0.0500282
     3251.5        1.10611       -0.0405439
     3255        0.9773       -0.0333843
     3258.5        0.870519       -0.0278633
     3262        0.780879       -0.0235277
     3265.5        0.704805       -0.0200693
     3269        0.639625       -0.0172725
     3272.5        0.583307       -0.0149835
     3276        0.53428       -0.01309
     3279.5        0.491313       -0.0115086
     3283        0.45343       -0.0101765
     3286.5        0.437517       -0.00882348
     3290        0.408396       -0.00784154
     3293.5        0.382471       -0.00699314
     3297        0.359316       -0.00625502
     3300.5        0.339894       -0.00559202
     3304        0.321342       -0.00502095
     3307.5        0.304673       -0.00451396
     3311        0.289682       -0.00406082
     3314.5        0.276195       -0.00365298
     3318        0.264066       -0.00328324
     3321.5        0.253175       -0.00294541
     3325        0.243418       -0.00263414
     3328.5        0.232568       -0.00231829
     3332        0.200456       -0.00174622
     3335.5        0.194764       -0.0015082
     3339        0.189889       -0.00127847
     3342.5        0.185809       -0.00105358
     3346        0.16106       -0.0005662503
     3349.5        0.0976705        0.0004026667
     3353        0.0993738        0.0005729690
     3356.5        0.1017        0.0007591049
     3360        0.104712        0.0009658040
     3363.5        0.108491        0.00119886
     3367        0.113143        0.00146549
     3370.5        0.0835829        0.00220841
     3374        0.0918837        0.00254553
     3377.5        0.101486        0.00295491
     3381        0.112676        0.00345701
     3384.5        0.125825        0.00407961
     3388        0.141418        0.00486113
     3391.5        0.1601        0.00585568
     3395        0.182746        0.00714099
     3398.5        0.210558        0.00883148
     3402        0.245237        0.0111
     3405.5        0.28924        0.0142158
     3409        0.346231        0.0186132
     3412.5        0.421859        0.0250225
     3416        0.525199        0.0347327
     3419.5        0.671567        0.050156
     3423        0.888411        0.0761409
     3426.5        1.22877        0.123334
     3430        1.80542        0.217857
     3433.5        2.8896        0.433346
     3437        5.24263        1.01234
     3440.5       11.3055        2.75899
     3444       25.0695        3.8555
     3447.5       21.9772       -4.47658
     3451        9.74551       -2.1443
     3454.5        5.28795       -0.636236
     3458        4.33408       -0.0547667
     3461.5        3.32634       -0.517201
     3465        1.85595       -0.286819
     3468.5        1.16256       -0.133993
     3472        0.813077       -0.0740984
     3475.5        0.607865       -0.0462814
     3479        0.474566       -0.0312729
     3482.5        0.382047       -0.0222995
     3486        0.314775       -0.0165371
     3489.5        0.264135       -0.0126389
     3493        0.224968       -0.00989448
     3496.5        0.194004       -0.00790041
     3499.5        0.17233       -0.00660147